02/12/2019 10:32
Laser wavelength: -3
N to average: 1
Int: 0.10 s
LambdaCenter: 700.0 nm
grating: 0 
Int: 0.10 s
LambdaCenter: 800.0 nm
grating: 0 
 -------------
Grating 0=300 gr 1000 nm/mirror
Grating 1=900 gr 600 nm/600 gr 1000 nm
Grating 2=1800 gr 500 nm
2.018348	4.000000	1.733114	227.000000
2.017792	-2.000000	1.732710	257.000000
2.017237	-4.000000	1.732306	265.000000
2.016683	-3.000000	1.731902	303.000000
2.016128	3.000000	1.731499	333.000000
2.015574	1.000000	1.731095	355.000000
2.015021	-1.000000	1.730692	356.000000
2.014467	-1.000000	1.730289	390.000000
2.013914	1.000000	1.729886	412.000000
2.013361	6.000000	1.729483	434.000000
2.012808	0.000000	1.729081	465.000000
2.012256	-1.000000	1.728678	501.000000
2.011704	-1.000000	1.728276	545.000000
2.011153	3.000000	1.727874	554.000000
2.010601	-2.000000	1.727473	599.000000
2.010050	5.000000	1.727071	635.000000
2.009499	8.000000	1.726670	649.000000
2.008949	-3.000000	1.726268	716.000000
2.008399	4.000000	1.725867	739.000000
2.007849	3.000000	1.725467	805.000000
2.007299	-6.000000	1.725066	829.000000
2.006750	-1.000000	1.724665	875.000000
2.006201	3.000000	1.724265	931.000000
2.005653	0.000000	1.723865	990.000000
2.005104	1.000000	1.723465	1023.000000
2.004556	-2.000000	1.723065	1105.000000
2.004009	8.000000	1.722666	1154.000000
2.003461	2.000000	1.722267	1204.000000
2.002914	5.000000	1.721867	1266.000000
2.002367	1.000000	1.721468	1353.000000
2.001821	3.000000	1.721070	1396.000000
2.001274	-3.000000	1.720671	1472.000000
2.000728	5.000000	1.720273	1579.000000
2.000183	-1.000000	1.719874	1651.000000
1.999637	-1.000000	1.719476	1727.000000
1.999092	-10.000000	1.719078	1816.000000
1.998548	1.000000	1.718681	1914.000000
1.998003	1.000000	1.718283	1989.000000
1.997459	4.000000	1.717886	2099.000000
1.996915	1.000000	1.717489	2204.000000
1.996371	5.000000	1.717092	2325.000000
1.995828	-4.000000	1.716695	2441.000000
1.995285	3.000000	1.716298	2530.000000
1.994743	2.000000	1.715902	2663.000000
1.994200	0.000000	1.715506	2781.000000
1.993658	1.000000	1.715110	2911.000000
1.993116	1.000000	1.714714	3071.000000
1.992575	1.000000	1.714318	3210.000000
1.992034	-3.000000	1.713923	3374.000000
1.991493	3.000000	1.713527	3529.000000
1.990952	-2.000000	1.713132	3662.000000
1.990412	3.000000	1.712737	3860.000000
1.989872	3.000000	1.712343	3997.000000
1.989332	9.000000	1.711948	4194.000000
1.988792	3.000000	1.711554	4340.000000
1.988253	-3.000000	1.711159	4575.000000
1.987714	2.000000	1.710765	4776.000000
1.987176	1.000000	1.710372	4944.000000
1.986638	3.000000	1.709978	5113.000000
1.986100	-5.000000	1.709584	5338.000000
1.985562	0.000000	1.709191	5555.000000
1.985024	3.000000	1.708798	5732.000000
1.984487	-5.000000	1.708405	5890.000000
1.983950	3.000000	1.708012	6056.000000
1.983414	2.000000	1.707620	6251.000000
1.982878	7.000000	1.707227	6385.000000
1.982342	-1.000000	1.706835	6561.000000
1.981806	8.000000	1.706443	6686.000000
1.981271	5.000000	1.706051	6777.000000
1.980736	-3.000000	1.705659	6840.000000
1.980201	5.000000	1.705268	6893.000000
1.979666	1.000000	1.704877	6872.000000
1.979132	6.000000	1.704485	6850.000000
1.978598	0.000000	1.704094	6812.000000
1.978064	6.000000	1.703704	6807.000000
1.977531	0.000000	1.703313	6719.000000
1.976998	4.000000	1.702923	6639.000000
1.976465	10.000000	1.702532	6467.000000
1.975933	-2.000000	1.702142	6323.000000
1.975401	-3.000000	1.701752	6198.000000
1.974869	5.000000	1.701363	6023.000000
1.974337	-2.000000	1.700973	5783.000000
1.973806	4.000000	1.700584	5617.000000
1.973275	-2.000000	1.700195	5297.000000
1.972744	0.000000	1.699806	5164.000000
1.972213	2.000000	1.699417	4946.000000
1.971683	2.000000	1.699028	4699.000000
1.971153	4.000000	1.698640	4477.000000
1.970624	0.000000	1.698251	4219.000000
1.970094	3.000000	1.697863	4087.000000
1.969565	-4.000000	1.697475	3847.000000
1.969036	2.000000	1.697088	3613.000000
1.968508	3.000000	1.696700	3354.000000
1.967980	3.000000	1.696313	3143.000000
1.967452	0.000000	1.695925	2943.000000
1.966924	-1.000000	1.695538	2757.000000
1.966397	-3.000000	1.695151	2568.000000
1.965870	4.000000	1.694765	2404.000000
1.965343	1.000000	1.694378	2274.000000
1.964816	3.000000	1.693992	2139.000000
1.964290	-2.000000	1.693606	1983.000000
1.963764	2.000000	1.693220	1855.000000
1.963238	-1.000000	1.692834	1719.000000
1.962713	2.000000	1.692448	1597.000000
1.962188	-1.000000	1.692063	1515.000000
1.961663	3.000000	1.691678	1404.000000
1.961138	-3.000000	1.691292	1327.000000
1.960614	2.000000	1.690908	1240.000000
1.960090	-4.000000	1.690523	1184.000000
1.959566	9.000000	1.690138	1088.000000
1.959043	0.000000	1.689754	1030.000000
1.958520	2.000000	1.689370	944.000000
1.957997	0.000000	1.688985	899.000000
1.957474	-3.000000	1.688602	819.000000
1.956952	-2.000000	1.688218	790.000000
1.956430	-2.000000	1.687834	735.000000
1.955908	4.000000	1.687451	683.000000
1.955387	6.000000	1.687068	640.000000
1.954866	5.000000	1.686685	580.000000
1.954345	-2.000000	1.686302	552.000000
1.953824	-6.000000	1.685919	520.000000
1.953304	1.000000	1.685537	492.000000
1.952784	0.000000	1.685154	439.000000
1.952264	2.000000	1.684772	402.000000
1.951744	1.000000	1.684390	373.000000
1.951225	2.000000	1.684008	356.000000
1.950706	-3.000000	1.683627	332.000000
1.950187	1.000000	1.683245	303.000000
1.949669	4.000000	1.682864	282.000000
1.949151	-2.000000	1.682483	270.000000
1.948633	4.000000	1.682102	247.000000
1.948115	-3.000000	1.681721	229.000000
1.947598	0.000000	1.681341	215.000000
1.947081	8.000000	1.680960	212.000000
1.946564	1.000000	1.680580	188.000000
1.946048	-3.000000	1.680200	175.000000
1.945531	-2.000000	1.679820	169.000000
1.945015	5.000000	1.679440	144.000000
1.944500	2.000000	1.679061	144.000000
1.943984	7.000000	1.678681	132.000000
1.943469	0.000000	1.678302	130.000000
1.942954	6.000000	1.677923	125.000000
1.942440	2.000000	1.677544	112.000000
1.941925	-3.000000	1.677165	110.000000
1.941411	-2.000000	1.676787	100.000000
1.940897	-2.000000	1.676409	97.000000
1.940384	4.000000	1.676030	87.000000
1.939871	9.000000	1.675652	82.000000
1.939358	2.000000	1.675275	75.000000
1.938845	4.000000	1.674897	73.000000
1.938333	2.000000	1.674519	70.000000
1.937820	-1.000000	1.674142	60.000000
1.937309	1.000000	1.673765	65.000000
1.936797	-4.000000	1.673388	61.000000
1.936286	5.000000	1.673011	48.000000
1.935775	3.000000	1.672634	60.000000
1.935264	4.000000	1.672258	46.000000
1.934753	1.000000	1.671881	57.000000
1.934243	-2.000000	1.671505	45.000000
1.933733	7.000000	1.671129	45.000000
1.933223	1.000000	1.670754	48.000000
1.932714	6.000000	1.670378	48.000000
1.932205	5.000000	1.670002	42.000000
1.931696	3.000000	1.669627	41.000000
1.931187	3.000000	1.669252	40.000000
1.930679	3.000000	1.668877	31.000000
1.930171	-2.000000	1.668502	35.000000
1.929663	-2.000000	1.668128	32.000000
1.929155	0.000000	1.667753	25.000000
1.928648	2.000000	1.667379	31.000000
1.928141	3.000000	1.667005	32.000000
1.927634	-1.000000	1.666631	33.000000
1.927127	5.000000	1.666257	29.000000
1.926621	-2.000000	1.665883	22.000000
1.926115	0.000000	1.665510	27.000000
1.925610	7.000000	1.665137	29.000000
1.925104	7.000000	1.664763	27.000000
1.924599	4.000000	1.664390	33.000000
1.924094	2.000000	1.664018	26.000000
1.923589	-4.000000	1.663645	34.000000
1.923085	0.000000	1.663273	26.000000
1.922581	7.000000	1.662900	20.000000
1.922077	0.000000	1.662528	21.000000
1.921573	-2.000000	1.662156	25.000000
1.921070	3.000000	1.661784	23.000000
1.920567	7.000000	1.661413	24.000000
1.920064	0.000000	1.661041	25.000000
1.919562	3.000000	1.660670	22.000000
1.919059	7.000000	1.660299	19.000000
1.918557	9.000000	1.659928	28.000000
1.918056	7.000000	1.659557	25.000000
1.917554	4.000000	1.659186	19.000000
1.917053	0.000000	1.658816	16.000000
1.916552	7.000000	1.658446	18.000000
1.916051	8.000000	1.658076	20.000000
1.915551	7.000000	1.657706	19.000000
1.915050	4.000000	1.657336	20.000000
1.914551	1.000000	1.656966	13.000000
1.914051	-1.000000	1.656597	20.000000
1.913552	11.000000	1.656227	17.000000
1.913052	9.000000	1.655858	20.000000
1.912553	12.000000	1.655489	19.000000
1.912055	7.000000	1.655120	17.000000
1.911557	8.000000	1.654752	20.000000
1.911058	10.000000	1.654383	17.000000
1.910561	11.000000	1.654015	18.000000
1.910063	17.000000	1.653647	12.000000
1.909566	11.000000	1.653279	15.000000
1.909069	18.000000	1.652911	8.000000
1.908572	10.000000	1.652543	12.000000
1.908075	16.000000	1.652176	17.000000
1.907579	20.000000	1.651809	16.000000
1.907083	17.000000	1.651441	17.000000
1.906587	27.000000	1.651074	12.000000
1.906092	22.000000	1.650707	15.000000
1.905596	15.000000	1.650341	10.000000
1.905101	21.000000	1.649974	18.000000
1.904607	22.000000	1.649608	11.000000
1.904112	19.000000	1.649242	11.000000
1.903618	28.000000	1.648876	13.000000
1.903124	33.000000	1.648510	21.000000
1.902630	29.000000	1.648144	16.000000
1.902137	38.000000	1.647779	10.000000
1.901644	19.000000	1.647413	6.000000
1.901151	39.000000	1.647048	16.000000
1.900658	38.000000	1.646683	18.000000
1.900165	37.000000	1.646318	10.000000
1.899673	46.000000	1.645953	5.000000
1.899181	54.000000	1.645589	11.000000
1.898690	59.000000	1.645224	15.000000
1.898198	67.000000	1.644860	11.000000
1.897707	62.000000	1.644496	4.000000
1.897216	68.000000	1.644132	17.000000
1.896726	77.000000	1.643768	16.000000
1.896235	77.000000	1.643405	13.000000
1.895745	85.000000	1.643041	6.000000
1.895255	89.000000	1.642678	10.000000
1.894765	107.000000	1.642315	11.000000
1.894276	108.000000	1.641952	6.000000
1.893787	121.000000	1.641589	12.000000
1.893298	123.000000	1.641226	20.000000
1.892809	136.000000	1.640864	9.000000
1.892321	157.000000	1.640501	12.000000
1.891833	162.000000	1.640139	17.000000
1.891345	180.000000	1.639777	6.000000
1.890857	193.000000	1.639415	6.000000
1.890370	198.000000	1.639054	5.000000
1.889883	233.000000	1.638692	7.000000
1.889396	243.000000	1.638331	6.000000
1.888909	256.000000	1.637970	5.000000
1.888423	267.000000	1.637609	11.000000
1.887937	299.000000	1.637248	8.000000
1.887451	307.000000	1.636887	10.000000
1.886965	328.000000	1.636526	13.000000
1.886480	355.000000	1.636166	4.000000
1.885995	373.000000	1.635806	6.000000
1.885510	408.000000	1.635446	9.000000
1.885025	434.000000	1.635086	9.000000
1.884541	458.000000	1.634726	6.000000
1.884057	479.000000	1.634366	6.000000
1.883573	516.000000	1.634007	6.000000
1.883089	545.000000	1.633647	10.000000
1.882606	571.000000	1.633288	12.000000
1.882123	615.000000	1.632929	9.000000
1.881640	641.000000	1.632571	12.000000
1.881157	675.000000	1.632212	9.000000
1.880675	729.000000	1.631853	1.000000
1.880193	767.000000	1.631495	7.000000
1.879711	805.000000	1.631137	7.000000
1.879229	834.000000	1.630779	11.000000
1.878748	861.000000	1.630421	14.000000
1.878267	877.000000	1.630063	7.000000
1.877786	929.000000	1.629706	6.000000
1.877305	956.000000	1.629348	11.000000
1.876825	975.000000	1.628991	7.000000
1.876345	1002.000000	1.628634	8.000000
1.875865	1014.000000	1.628277	8.000000
1.875385	1031.000000	1.627920	16.000000
1.874906	1052.000000	1.627563	10.000000
1.874426	1025.000000	1.627207	14.000000
1.873948	1027.000000	1.626851	10.000000
1.873469	1026.000000	1.626494	10.000000
1.872990	1056.000000	1.626138	6.000000
1.872512	1028.000000	1.625783	4.000000
1.872034	1024.000000	1.625427	6.000000
1.871556	1015.000000	1.625071	12.000000
1.871079	1001.000000	1.624716	5.000000
1.870602	968.000000	1.624361	1.000000
1.870125	940.000000	1.624006	8.000000
1.869648	907.000000	1.623651	12.000000
1.869172	890.000000	1.623296	12.000000
1.868695	854.000000	1.622941	11.000000
1.868219	829.000000	1.622587	6.000000
1.867743	772.000000	1.622233	12.000000
1.867268	740.000000	1.621878	7.000000
1.866793	718.000000	1.621524	6.000000
1.866318	671.000000	1.621171	6.000000
1.865843	620.000000	1.620817	8.000000
1.865368	597.000000	1.620463	9.000000
1.864894	551.000000	1.620110	6.000000
1.864420	530.000000	1.619757	8.000000
1.863946	481.000000	1.619404	7.000000
1.863472	457.000000	1.619051	6.000000
1.862999	443.000000	1.618698	9.000000
1.862526	396.000000	1.618345	3.000000
1.862053	377.000000	1.617993	10.000000
1.861580	353.000000	1.617641	11.000000
1.861108	327.000000	1.617288	17.000000
1.860636	305.000000	1.616937	6.000000
1.860164	283.000000	1.616585	11.000000
1.859692	263.000000	1.616233	11.000000
1.859221	252.000000	1.615881	13.000000
1.858750	233.000000	1.615530	12.000000
1.858279	197.000000	1.615179	13.000000
1.857808	184.000000	1.614828	8.000000
1.857337	173.000000	1.614477	11.000000
1.856867	156.000000	1.614126	6.000000
1.856397	150.000000	1.613775	9.000000
1.855927	137.000000	1.613425	8.000000
1.855458	118.000000	1.613075	13.000000
1.854989	109.000000	1.612725	12.000000
1.854519	100.000000	1.612375	12.000000
1.854051	95.000000	1.612025	4.000000
1.853582	100.000000	1.611675	11.000000
1.853114	83.000000	1.611325	8.000000
1.852646	73.000000	1.610976	4.000000
1.852178	77.000000	1.610627	9.000000
1.851710	68.000000	1.610278	12.000000
1.851243	63.000000	1.609929	5.000000
1.850775	49.000000	1.609580	11.000000
1.850309	62.000000	1.609231	8.000000
1.849842	54.000000	1.608883	10.000000
1.849375	46.000000	1.608534	4.000000
1.848909	50.000000	1.608186	6.000000
1.848443	40.000000	1.607838	15.000000
1.847977	41.000000	1.607490	8.000000
1.847512	44.000000	1.607143	9.000000
1.847047	39.000000	1.606795	8.000000
1.846582	37.000000	1.606448	14.000000
1.846117	28.000000	1.606100	9.000000
1.845652	39.000000	1.605753	10.000000
1.845188	37.000000	1.605406	9.000000
1.844724	29.000000	1.605059	15.000000
1.844260	33.000000	1.604713	10.000000
1.843796	30.000000	1.604366	7.000000
1.843333	30.000000	1.604020	13.000000
1.842870	29.000000	1.603673	9.000000
1.842407	28.000000	1.603327	8.000000
1.841944	38.000000	1.602981	16.000000
1.841481	35.000000	1.602636	7.000000
1.841019	35.000000	1.602290	18.000000
1.840557	37.000000	1.601944	7.000000
1.840095	34.000000	1.601599	12.000000
1.839634	27.000000	1.601254	10.000000
1.839172	29.000000	1.600909	14.000000
1.838711	30.000000	1.600564	11.000000
1.838250	31.000000	1.600219	10.000000
1.837790	27.000000	1.599875	10.000000
1.837329	30.000000	1.599530	15.000000
1.836869	30.000000	1.599186	14.000000
1.836409	37.000000	1.598842	5.000000
1.835950	36.000000	1.598498	11.000000
1.835490	29.000000	1.598154	18.000000
1.835031	29.000000	1.597810	14.000000
1.834572	32.000000	1.597467	13.000000
1.834113	28.000000	1.597123	8.000000
1.833654	24.000000	1.596780	6.000000
1.833196	25.000000	1.596437	15.000000
1.832738	24.000000	1.596094	7.000000
1.832280	19.000000	1.595751	13.000000
1.831823	28.000000	1.595408	15.000000
1.831365	18.000000	1.595066	11.000000
1.830908	25.000000	1.594723	8.000000
1.830451	25.000000	1.594381	7.000000
1.829994	27.000000	1.594039	9.000000
1.829538	30.000000	1.593697	12.000000
1.829081	30.000000	1.593355	11.000000
1.828625	24.000000	1.593014	5.000000
1.828170	18.000000	1.592672	15.000000
1.827714	21.000000	1.592331	12.000000
1.827259	21.000000	1.591990	13.000000
1.826803	23.000000	1.591648	7.000000
1.826349	17.000000	1.591308	10.000000
1.825894	17.000000	1.590967	17.000000
1.825439	13.000000	1.590626	14.000000
1.824985	12.000000	1.590286	8.000000
1.824531	20.000000	1.589945	6.000000
1.824077	17.000000	1.589605	14.000000
1.823624	21.000000	1.589265	5.000000
1.823170	21.000000	1.588925	10.000000
1.822717	13.000000	1.588585	20.000000
1.822264	12.000000	1.588246	8.000000
1.821812	19.000000	1.587906	15.000000
1.821359	15.000000	1.587567	13.000000
1.820907	18.000000	1.587228	11.000000
1.820455	15.000000	1.586889	12.000000
1.820003	18.000000	1.586550	16.000000
1.819552	15.000000	1.586211	13.000000
1.819101	15.000000	1.585873	17.000000
1.818649	10.000000	1.585534	10.000000
1.818199	16.000000	1.585196	7.000000
1.817748	14.000000	1.584858	8.000000
1.817298	12.000000	1.584520	14.000000
1.816847	12.000000	1.584182	15.000000
1.816397	9.000000	1.583844	10.000000
1.815948	16.000000	1.583506	12.000000
1.815498	10.000000	1.583169	13.000000
1.815049	4.000000	1.582832	3.000000
1.814600	7.000000	1.582495	10.000000
1.814151	12.000000	1.582158	8.000000
1.813702	12.000000	1.581821	2.000000
1.813254	4.000000	1.581484	7.000000
1.812806	10.000000	1.581147	9.000000
1.812358	11.000000	1.580811	10.000000
1.811910	10.000000	1.580475	19.000000
1.811462	12.000000	1.580138	4.000000
1.811015	6.000000	1.579802	7.000000
1.810568	4.000000	1.579467	15.000000
1.810121	3.000000	1.579131	10.000000
1.809674	11.000000	1.578795	14.000000
1.809228	4.000000	1.578460	18.000000
1.808782	5.000000	1.578125	10.000000
1.808336	7.000000	1.577789	12.000000
1.807890	9.000000	1.577454	16.000000
1.807444	2.000000	1.577120	8.000000
1.806999	6.000000	1.576785	18.000000
1.806554	-4.000000	1.576450	14.000000
1.806109	7.000000	1.576116	10.000000
1.805664	6.000000	1.575781	17.000000
1.805220	2.000000	1.575447	10.000000
1.804776	6.000000	1.575113	-1.000000
1.804332	8.000000	1.574779	9.000000
1.803888	7.000000	1.574446	15.000000
1.803444	3.000000	1.574112	7.000000
1.803001	7.000000	1.573779	17.000000
1.802558	8.000000	1.573445	9.000000
1.802115	5.000000	1.573112	8.000000
1.801672	6.000000	1.572779	11.000000
1.801230	-1.000000	1.572446	17.000000
1.800788	6.000000	1.572114	13.000000
1.800345	0.000000	1.571781	13.000000
1.799904	4.000000	1.571448	16.000000
1.799462	10.000000	1.571116	9.000000
1.799021	10.000000	1.570784	5.000000
1.798579	2.000000	1.570452	16.000000
1.798138	5.000000	1.570120	18.000000
1.797698	-1.000000	1.569788	11.000000
1.797257	6.000000	1.569457	8.000000
1.796817	2.000000	1.569125	8.000000
1.796377	-1.000000	1.568794	17.000000
1.795937	7.000000	1.568463	9.000000
1.795497	2.000000	1.568132	22.000000
1.795058	3.000000	1.567801	13.000000
1.794618	5.000000	1.567470	16.000000
1.794179	3.000000	1.567139	14.000000
1.793741	-3.000000	1.566809	11.000000
1.793302	6.000000	1.566478	17.000000
1.792864	3.000000	1.566148	8.000000
1.792425	6.000000	1.565818	13.000000
1.791988	1.000000	1.565488	13.000000
1.791550	5.000000	1.565158	12.000000
1.791112	8.000000	1.564829	12.000000
1.790675	3.000000	1.564499	2.000000
1.790238	4.000000	1.564170	2.000000
1.789801	-3.000000	1.563840	16.000000
1.789364	0.000000	1.563511	9.000000
1.788928	0.000000	1.563182	12.000000
1.788492	0.000000	1.562853	11.000000
1.788055	6.000000	1.562525	17.000000
1.787620	5.000000	1.562196	19.000000
1.787184	-1.000000	1.561868	11.000000
1.786749	1.000000	1.561540	8.000000
1.786313	4.000000	1.561211	10.000000
1.785878	7.000000	1.560883	13.000000
1.785444	4.000000	1.560555	12.000000
1.785009	3.000000	1.560228	13.000000
1.784575	1.000000	1.559900	19.000000
1.784141	2.000000	1.559573	13.000000
1.783707	-1.000000	1.559245	17.000000
1.783273	1.000000	1.558918	17.000000
1.782840	4.000000	1.558591	19.000000
1.782406	8.000000	1.558264	7.000000
1.781973	12.000000	1.557937	12.000000
1.781540	2.000000	1.557611	18.000000
1.781108	8.000000	1.557284	15.000000
1.780675	6.000000	1.556958	14.000000
1.780243	5.000000	1.556632	12.000000
1.779811	8.000000	1.556306	13.000000
1.779379	8.000000	1.555980	9.000000
1.778948	1.000000	1.555654	11.000000
1.778516	1.000000	1.555328	8.000000
1.778085	0.000000	1.555003	13.000000
1.777654	7.000000	1.554677	14.000000
1.777223	4.000000	1.554352	9.000000
1.776793	-1.000000	1.554027	15.000000
1.776362	2.000000	1.553702	13.000000
1.775932	1.000000	1.553377	15.000000
1.775502	8.000000	1.553052	14.000000
1.775072	1.000000	1.552728	7.000000
1.774643	8.000000	1.552403	12.000000
1.774214	4.000000	1.552079	18.000000
1.773785	6.000000	1.551755	11.000000
1.773356	8.000000	1.551431	8.000000
1.772927	5.000000	1.551107	11.000000
1.772498	3.000000	1.550783	19.000000
1.772070	4.000000	1.550459	11.000000
1.771642	9.000000	1.550136	5.000000
1.771214	9.000000	1.549812	11.000000
1.770787	8.000000	1.549489	16.000000
1.770359	-2.000000	1.549166	12.000000
1.769932	-1.000000	1.548843	7.000000
1.769505	3.000000	1.548520	8.000000
1.769078	2.000000	1.548198	14.000000
1.768651	9.000000	1.547875	9.000000
1.768225	2.000000	1.547553	10.000000
1.767799	-1.000000	1.547230	14.000000
1.767373	7.000000	1.546908	13.000000
1.766947	8.000000	1.546586	16.000000
1.766521	10.000000	1.546264	12.000000
1.766096	7.000000	1.545943	13.000000
1.765671	8.000000	1.545621	8.000000
1.765246	3.000000	1.545299	13.000000
1.764821	0.000000	1.544978	15.000000
1.764396	6.000000	1.544657	15.000000
1.763972	3.000000	1.544336	17.000000
1.763548	3.000000	1.544015	10.000000
1.763124	5.000000	1.543694	6.000000
1.762700	0.000000	1.543373	16.000000
1.762277	4.000000	1.543053	10.000000
1.761853	9.000000	1.542732	23.000000
1.761430	7.000000	1.542412	9.000000
1.761007	2.000000	1.542092	12.000000
1.760585	3.000000	1.541772	10.000000
1.760162	10.000000	1.541452	13.000000
1.759740	9.000000	1.541132	18.000000
1.759317	15.000000	1.540813	12.000000
1.758896	1.000000	1.540493	13.000000
1.758474	6.000000	1.540174	2.000000
1.758052	10.000000	1.539854	4.000000
1.757631	1.000000	1.539535	11.000000
1.757210	7.000000	1.539216	11.000000
1.756789	3.000000	1.538898	8.000000
1.756368	4.000000	1.538579	6.000000
1.755948	11.000000	1.538260	9.000000
1.755527	10.000000	1.537942	4.000000
1.755107	4.000000	1.537624	14.000000
1.754687	8.000000	1.537305	16.000000
1.754268	1.000000	1.536987	14.000000
1.753848	12.000000	1.536669	8.000000
1.753429	11.000000	1.536352	3.000000
1.753010	10.000000	1.536034	15.000000
1.752591	8.000000	1.535717	14.000000
1.752172	3.000000	1.535399	12.000000
1.751754	16.000000	1.535082	16.000000
1.751335	7.000000	1.534765	12.000000
1.750917	13.000000	1.534448	18.000000
1.750499	13.000000	1.534131	6.000000
1.750082	17.000000	1.533814	9.000000
1.749664	14.000000	1.533498	12.000000
1.749247	17.000000	1.533181	18.000000
1.748830	14.000000	1.532865	10.000000
1.748413	16.000000	1.532549	8.000000
1.747996	13.000000	1.532232	16.000000
1.747579	13.000000	1.531917	8.000000
1.747163	22.000000	1.531601	7.000000
1.746747	19.000000	1.531285	14.000000
1.746331	19.000000	1.530969	20.000000
1.745915	23.000000	1.530654	9.000000
1.745500	28.000000	1.530339	9.000000
1.745085	33.000000	1.530024	15.000000
1.744669	29.000000	1.529709	13.000000
1.744254	31.000000	1.529394	23.000000
1.743840	33.000000	1.529079	10.000000
1.743425	40.000000	1.528764	9.000000
1.743011	32.000000	1.528450	4.000000
1.742597	36.000000	1.528135	18.000000
1.742183	45.000000	1.527821	14.000000
1.741769	53.000000	1.527507	13.000000
1.741355	65.000000	1.527193	15.000000
1.740942	68.000000	1.526879	30.000000
1.740529	83.000000	1.526565	14.000000
1.740116	80.000000	1.526252	21.000000
1.739703	91.000000	1.525938	18.000000
1.739291	94.000000	1.525625	26.000000
1.738878	111.000000	1.525312	29.000000
1.738466	124.000000	1.524999	42.000000
1.738054	135.000000	1.524686	37.000000
1.737642	151.000000	1.524373	49.000000
1.737231	159.000000	1.524060	56.000000
1.736819	171.000000	1.523747	56.000000
1.736408	176.000000	1.523435	63.000000
1.735997	196.000000	1.523123	70.000000
1.735586	225.000000	1.522810	90.000000
1.735176	233.000000	1.522498	87.000000
1.734765	256.000000	1.522186	104.000000
1.734355	268.000000	1.521875	127.000000
1.733945	286.000000	1.521563	150.000000
1.733535	320.000000	1.521251	179.000000
1.733125	333.000000	1.520940	204.000000
1.732716	361.000000	1.520629	223.000000
1.732307	375.000000	1.520317	258.000000
1.731898	415.000000	1.520006	306.000000
1.731489	428.000000	1.519695	368.000000
1.731080	454.000000	1.519385	419.000000
1.730671	496.000000	1.519074	502.000000
1.730263	522.000000	1.518763	577.000000
1.729855	554.000000	1.518453	689.000000
1.729447	580.000000	1.518143	793.000000
1.729039	619.000000	1.517833	918.000000
1.728632	661.000000	1.517523	1077.000000
1.728225	685.000000	1.517213	1235.000000
1.727817	722.000000	1.516903	1454.000000
1.727410	789.000000	1.516593	1668.000000
1.727004	822.000000	1.516284	1978.000000
1.726597	861.000000	1.515974	2280.000000
1.726191	917.000000	1.515665	2757.000000
1.725785	957.000000	1.515356	3373.000000
1.725378	1034.000000	1.515047	4182.000000
1.724973	1076.000000	1.514738	5141.000000
1.724567	1111.000000	1.514429	6236.000000
1.724162	1166.000000	1.514121	7326.000000
1.723756	1229.000000	1.513812	8341.000000
1.723351	1323.000000	1.513504	9202.000000
1.722946	1373.000000	1.513195	9817.000000
1.722542	1446.000000	1.512887	10451.000000
1.722137	1523.000000	1.512579	10724.000000
1.721733	1584.000000	1.512271	11010.000000
1.721329	1694.000000	1.511964	11043.000000
1.720925	1794.000000	1.511656	10900.000000
1.720521	1847.000000	1.511348	10322.000000
1.720118	1950.000000	1.511041	9385.000000
1.719714	2046.000000	1.510734	8291.000000
1.719311	2122.000000	1.510427	7161.000000
1.718908	2260.000000	1.510120	6153.000000
1.718506	2345.000000	1.509813	5331.000000
1.718103	2443.000000	1.509506	4530.000000
1.717701	2582.000000	1.509199	3805.000000
1.717298	2696.000000	1.508893	3205.000000
1.716896	2817.000000	1.508586	2628.000000
1.716495	2968.000000	1.508280	2032.000000
1.716093	3106.000000	1.507974	1561.000000
1.715691	3277.000000	1.507668	1246.000000
1.715290	3406.000000	1.507362	1029.000000
1.714889	3538.000000	1.507056	871.000000
1.714488	3716.000000	1.506751	778.000000
1.714088	3892.000000	1.506445	658.000000
1.713687	4054.000000	1.506140	607.000000
1.713287	4244.000000	1.505834	560.000000
1.712887	4421.000000	1.505529	521.000000
1.712487	4579.000000	1.505224	512.000000
1.712087	4795.000000	1.504919	502.000000
1.711687	4902.000000	1.504614	515.000000
1.711288	5164.000000	1.504310	518.000000
1.710889	5316.000000	1.504005	544.000000
1.710490	5510.000000	1.503701	601.000000
1.710091	5642.000000	1.503397	631.000000
1.709692	5846.000000	1.503092	717.000000
1.709294	6012.000000	1.502788	796.000000
1.708895	6139.000000	1.502484	858.000000
1.708497	6313.000000	1.502181	969.000000
1.708099	6356.000000	1.501877	1087.000000
1.707702	6493.000000	1.501573	1240.000000
1.707304	6558.000000	1.501270	1381.000000
1.706907	6551.000000	1.500967	1550.000000
1.706510	6442.000000	1.500663	1770.000000
1.706113	6508.000000	1.500360	1949.000000
1.705716	6523.000000	1.500057	2207.000000
1.705319	6453.000000	1.499755	2466.000000
1.704923	6367.000000	1.499452	2787.000000
1.704526	6320.000000	1.499149	3136.000000
1.704130	6187.000000	1.498847	3515.000000
1.703735	6029.000000	1.498545	3970.000000
1.703339	5867.000000	1.498242	4483.000000
1.702943	5674.000000	1.497940	5040.000000
1.702548	5473.000000	1.497638	5592.000000
1.702153	5220.000000	1.497337	6337.000000
1.701758	5012.000000	1.497035	7162.000000
1.701363	4779.000000	1.496733	8033.000000
1.700969	4532.000000	1.496432	9085.000000
1.700574	4334.000000	1.496130	10200.000000
1.700180	4102.000000	1.495829	11494.000000
1.699786	3913.000000	1.495528	12842.000000
1.699392	3760.000000	1.495227	14444.000000
1.698998	3564.000000	1.494926	16166.000000
1.698605	3301.000000	1.494625	18113.000000
1.698212	3087.000000	1.494325	20066.000000
1.697818	2947.000000	1.494024	22175.000000
1.697425	2682.000000	1.493724	24372.000000
1.697033	2492.000000	1.493424	26428.000000
1.696640	2362.000000	1.493123	28465.000000
1.696248	2200.000000	1.492823	30150.000000
1.695855	2089.000000	1.492524	31539.000000
1.695463	1948.000000	1.492224	32614.000000
1.695072	1797.000000	1.491924	33075.000000
1.694680	1677.000000	1.491625	33564.000000
1.694288	1552.000000	1.491325	33575.000000
1.693897	1483.000000	1.491026	33534.000000
1.693506	1375.000000	1.490727	33427.000000
1.693115	1289.000000	1.490428	32926.000000
1.692724	1207.000000	1.490129	32365.000000
1.692334	1128.000000	1.489830	31738.000000
1.691943	1047.000000	1.489531	31101.000000
1.691553	986.000000	1.489233	30437.000000
1.691163	919.000000	1.488934	29763.000000
1.690773	871.000000	1.488636	28917.000000
1.690383	807.000000	1.488338	28166.000000
1.689994	761.000000	1.488039	26968.000000
1.689604	690.000000	1.487741	25673.000000
1.689215	663.000000	1.487444	24194.000000
1.688826	606.000000	1.487146	22634.000000
1.688437	549.000000	1.486848	20764.000000
1.688049	521.000000	1.486551	18987.000000
1.687660	471.000000	1.486253	16966.000000
1.687272	445.000000	1.485956	15131.000000
1.686884	399.000000	1.485659	13321.000000
1.686496	374.000000	1.485362	11651.000000
1.686108	348.000000	1.485065	10275.000000
1.685721	325.000000	1.484768	9027.000000
1.685334	303.000000	1.484471	7925.000000
1.684946	287.000000	1.484175	7000.000000
1.684559	267.000000	1.483878	6056.000000
1.684172	269.000000	1.483582	5235.000000
1.683786	246.000000	1.483286	4474.000000
1.683399	226.000000	1.482990	3844.000000
1.683013	213.000000	1.482694	3193.000000
1.682627	189.000000	1.482398	2679.000000
1.682241	180.000000	1.482102	2257.000000
1.681855	175.000000	1.481807	1905.000000
1.681470	158.000000	1.481511	1610.000000
1.681084	146.000000	1.481216	1358.000000
1.680699	138.000000	1.480921	1159.000000
1.680314	134.000000	1.480625	1005.000000
1.679929	124.000000	1.480330	888.000000
1.679544	117.000000	1.480035	773.000000
1.679160	104.000000	1.479741	688.000000
1.678775	104.000000	1.479446	611.000000
1.678391	92.000000	1.479151	545.000000
1.678007	86.000000	1.478857	487.000000
1.677623	94.000000	1.478563	441.000000
1.677240	81.000000	1.478269	388.000000
1.676856	74.000000	1.477974	372.000000
1.676473	71.000000	1.477680	324.000000
1.676090	70.000000	1.477387	304.000000
1.675707	74.000000	1.477093	267.000000
1.675324	60.000000	1.476799	254.000000
1.674941	61.000000	1.476506	232.000000
1.674559	51.000000	1.476212	206.000000
1.674177	55.000000	1.475919	201.000000
1.673795	60.000000	1.475626	175.000000
1.673413	55.000000	1.475333	172.000000
1.673031	52.000000	1.475040	155.000000
1.672649	51.000000	1.474747	138.000000
1.672268	60.000000	1.474455	140.000000
1.671887	56.000000	1.474162	118.000000
1.671506	40.000000	1.473869	113.000000
1.671125	39.000000	1.473577	105.000000
1.670744	34.000000	1.473285	102.000000
1.670364	32.000000	1.472993	91.000000
1.669983	39.000000	1.472701	80.000000
1.669603	44.000000	1.472409	74.000000
1.669223	34.000000	1.472117	81.000000
1.668843	28.000000	1.471826	71.000000
1.668464	37.000000	1.471534	67.000000
1.668084	29.000000	1.471243	56.000000
1.667705	32.000000	1.470951	60.000000
1.667326	33.000000	1.470660	65.000000
1.666947	31.000000	1.470369	58.000000
1.666568	33.000000	1.470078	56.000000
1.666189	30.000000	1.469787	43.000000
1.665811	26.000000	1.469497	45.000000
1.665433	29.000000	1.469206	52.000000
1.665055	27.000000	1.468915	45.000000
1.664677	27.000000	1.468625	46.000000
1.664299	26.000000	1.468335	49.000000
1.663921	29.000000	1.468045	43.000000
1.663544	25.000000	1.467755	40.000000
1.663167	29.000000	1.467465	43.000000
1.662789	25.000000	1.467175	43.000000
1.662413	32.000000	1.466885	38.000000
1.662036	28.000000	1.466596	39.000000
1.661659	28.000000	1.466306	37.000000
1.661283	24.000000	1.466017	40.000000
1.660907	20.000000	1.465728	41.000000
1.660531	24.000000	1.465439	45.000000
1.660155	24.000000	1.465150	44.000000
1.659779	26.000000	1.464861	53.000000
1.659403	15.000000	1.464572	51.000000
1.659028	22.000000	1.464283	47.000000
1.658653	17.000000	1.463995	61.000000
1.658278	21.000000	1.463706	61.000000
1.657903	19.000000	1.463418	66.000000
1.657528	22.000000	1.463130	75.000000
1.657154	13.000000	1.462842	70.000000
1.656779	24.000000	1.462554	86.000000
1.656405	12.000000	1.462266	93.000000
1.656031	23.000000	1.461978	101.000000
1.655657	15.000000	1.461690	109.000000
1.655284	26.000000	1.461403	113.000000
1.654910	13.000000	1.461115	128.000000
1.654537	9.000000	1.460828	141.000000
1.654164	25.000000	1.460541	156.000000
1.653791	19.000000	1.460254	175.000000
1.653418	26.000000	1.459967	188.000000
1.653045	19.000000	1.459680	209.000000
1.652673	17.000000	1.459393	215.000000
1.652300	16.000000	1.459107	246.000000
1.651928	21.000000	1.458820	263.000000
1.651556	11.000000	1.458534	294.000000
1.651184	20.000000	1.458247	317.000000
1.650813	14.000000	1.457961	354.000000
1.650441	14.000000	1.457675	378.000000
1.650070	19.000000	1.457389	399.000000
1.649699	7.000000	1.457103	431.000000
1.649328	16.000000	1.456818	455.000000
1.648957	9.000000	1.456532	482.000000
1.648586	18.000000	1.456247	510.000000
1.648216	16.000000	1.455961	520.000000
1.647845	12.000000	1.455676	539.000000
1.647475	14.000000	1.455391	530.000000
1.647105	12.000000	1.455106	539.000000
1.646735	15.000000	1.454821	561.000000
1.646366	13.000000	1.454536	576.000000
1.645996	16.000000	1.454251	545.000000
1.645627	7.000000	1.453967	552.000000
1.645258	13.000000	1.453682	555.000000
1.644889	14.000000	1.453398	545.000000
1.644520	14.000000	1.453113	545.000000
1.644151	12.000000	1.452829	530.000000
1.643783	10.000000	1.452545	513.000000
1.643414	11.000000	1.452261	513.000000
1.643046	10.000000	1.451978	498.000000
1.642678	12.000000	1.451694	478.000000
1.642310	19.000000	1.451410	474.000000
1.641943	10.000000	1.451127	435.000000
1.641575	10.000000	1.450843	427.000000
1.641208	14.000000	1.450560	404.000000
1.640841	15.000000	1.450277	369.000000
1.640474	13.000000	1.449994	353.000000
1.640107	9.000000	1.449711	326.000000
1.639740	14.000000	1.449428	287.000000
1.639374	12.000000	1.449145	257.000000
1.639007	17.000000	1.448863	238.000000
1.638641	8.000000	1.448580	210.000000
1.638275	12.000000	1.448298	191.000000
1.637909	5.000000	1.448016	193.000000
1.637543	17.000000	1.447733	169.000000
1.637178	5.000000	1.447451	153.000000
1.636812	10.000000	1.447169	135.000000
1.636447	12.000000	1.446887	128.000000
1.636082	13.000000	1.446606	117.000000
1.635717	11.000000	1.446324	101.000000
1.635352	10.000000	1.446043	98.000000
1.634988	10.000000	1.445761	80.000000
1.634623	9.000000	1.445480	73.000000
1.634259	13.000000	1.445199	62.000000
1.633895	9.000000	1.444918	66.000000
1.633531	12.000000	1.444637	56.000000
1.633167	14.000000	1.444356	45.000000
1.632804	12.000000	1.444075	38.000000
1.632440	4.000000	1.443794	38.000000
1.632077	13.000000	1.443514	43.000000
1.631714	11.000000	1.443233	39.000000
1.631351	16.000000	1.442953	32.000000
1.630988	15.000000	1.442673	35.000000
1.630626	17.000000	1.442393	31.000000
1.630263	7.000000	1.442113	24.000000
1.629901	13.000000	1.441833	26.000000
1.629539	15.000000	1.441553	25.000000
1.629177	15.000000	1.441274	24.000000
1.628815	11.000000	1.440994	17.000000
1.628453	14.000000	1.440715	21.000000
1.628092	10.000000	1.440435	18.000000
1.627730	12.000000	1.440156	18.000000
1.627369	12.000000	1.439877	15.000000
1.627008	11.000000	1.439598	12.000000
1.626647	14.000000	1.439319	21.000000
1.626287	12.000000	1.439040	12.000000
1.625926	14.000000	1.438762	13.000000
1.625566	5.000000	1.438483	15.000000
1.625206	8.000000	1.438204	14.000000
1.624845	16.000000	1.437926	14.000000
1.624486	16.000000	1.437648	14.000000
1.624126	14.000000	1.437370	9.000000
1.623766	11.000000	1.437092	7.000000
1.623407	11.000000	1.436814	17.000000
1.623048	14.000000	1.436536	18.000000
1.622688	19.000000	1.436258	6.000000
1.622330	17.000000	1.435981	13.000000
1.621971	11.000000	1.435703	14.000000
1.621612	8.000000	1.435426	13.000000
1.621254	18.000000	1.435148	13.000000
1.620895	9.000000	1.434871	16.000000
1.620537	12.000000	1.434594	11.000000
1.620179	15.000000	1.434317	15.000000
1.619821	12.000000	1.434040	5.000000
1.619464	13.000000	1.433764	8.000000
1.619106	13.000000	1.433487	7.000000
1.618749	16.000000	1.433210	12.000000
1.618392	9.000000	1.432934	9.000000
1.618034	10.000000	1.432658	6.000000
1.617678	15.000000	1.432381	9.000000
1.617321	13.000000	1.432105	12.000000
1.616964	18.000000	1.431829	11.000000
1.616608	14.000000	1.431553	12.000000
1.616252	16.000000	1.431278	12.000000
1.615896	15.000000	1.431002	10.000000
1.615540	9.000000	1.430726	9.000000
1.615184	16.000000	1.430451	22.000000
1.614828	14.000000	1.430176	10.000000
1.614473	9.000000	1.429900	8.000000
1.614117	6.000000	1.429625	6.000000
1.613762	2.000000	1.429350	8.000000
1.613407	13.000000	1.429075	15.000000
1.613052	8.000000	1.428800	17.000000
1.612698	12.000000	1.428526	10.000000
1.612343	9.000000	1.428251	16.000000
1.611989	13.000000	1.427976	8.000000
1.611634	19.000000	1.427702	12.000000
1.611280	10.000000	1.427428	11.000000
1.610926	11.000000	1.427153	11.000000
1.610573	12.000000	1.426879	17.000000
1.610219	12.000000	1.426605	7.000000
1.609866	12.000000	1.426331	20.000000
1.609512	14.000000	1.426058	11.000000
1.609159	7.000000	1.425784	7.000000
1.608806	17.000000	1.425510	5.000000
1.608453	15.000000	1.425237	12.000000
1.608101	6.000000	1.424964	16.000000
1.607748	10.000000	1.424690	8.000000
1.607396	9.000000	1.424417	14.000000
1.607044	11.000000	1.424144	13.000000
1.606692	11.000000	1.423871	16.000000
1.606340	17.000000	1.423598	12.000000
1.605988	11.000000	1.423326	17.000000
1.605636	14.000000	1.423053	10.000000
1.605285	12.000000	1.422780	16.000000
1.604934	13.000000	1.422508	20.000000
1.604582	9.000000	1.422236	13.000000
1.604231	7.000000	1.421963	12.000000
1.603881	11.000000	1.421691	15.000000
1.603530	19.000000	1.421419	13.000000
1.603179	15.000000	1.421147	21.000000
1.602829	20.000000	1.420876	14.000000
1.602479	15.000000	1.420604	17.000000
1.602129	18.000000	1.420332	14.000000
1.601779	10.000000	1.420061	13.000000
1.601429	8.000000	1.419789	17.000000
1.601079	11.000000	1.419518	20.000000
1.600730	19.000000	1.419247	21.000000
1.600381	16.000000	1.418976	19.000000
1.600032	16.000000	1.418705	16.000000
1.599683	17.000000	1.418434	26.000000
1.599334	18.000000	1.418163	19.000000
1.598985	12.000000	1.417893	22.000000
1.598637	19.000000	1.417622	22.000000
1.598288	13.000000	1.417352	20.000000
1.597940	14.000000	1.417081	18.000000
1.597592	20.000000	1.416811	20.000000
1.597244	22.000000	1.416541	23.000000
1.596896	21.000000	1.416271	18.000000
1.596548	12.000000	1.416001	19.000000
1.596201	20.000000	1.415731	23.000000
1.595854	14.000000	1.415461	16.000000
1.595506	7.000000	1.415192	15.000000
1.595159	17.000000	1.414922	19.000000
1.594813	15.000000	1.414653	16.000000
1.594466	13.000000	1.414384	15.000000
1.594119	14.000000	1.414114	19.000000
1.593773	14.000000	1.413845	15.000000
1.593427	10.000000	1.413576	17.000000
1.593080	10.000000	1.413307	16.000000
1.592735	15.000000	1.413038	23.000000
1.592389	11.000000	1.412770	25.000000
1.592043	18.000000	1.412501	18.000000
1.591698	25.000000	1.412233	14.000000
1.591352	10.000000	1.411964	17.000000
1.591007	17.000000	1.411696	11.000000
1.590662	21.000000	1.411428	15.000000
1.590317	12.000000	1.411160	9.000000
1.589972	12.000000	1.410892	19.000000
1.589628	10.000000	1.410624	8.000000
1.589283	12.000000	1.410356	13.000000
1.588939	15.000000	1.410088	17.000000
1.588595	20.000000	1.409821	20.000000
1.588251	12.000000	1.409553	12.000000
1.587907	19.000000	1.409286	14.000000
1.587563	16.000000	1.409019	9.000000
1.587219	11.000000	1.408751	18.000000
1.586876	13.000000	1.408484	21.000000
1.586533	8.000000	1.408217	14.000000
1.586190	15.000000	1.407950	20.000000
1.585847	13.000000	1.407684	17.000000
1.585504	13.000000	1.407417	17.000000
1.585161	13.000000	1.407150	21.000000
1.584818	9.000000	1.406884	12.000000
1.584476	4.000000	1.406618	6.000000
1.584134	12.000000	1.406351	16.000000
1.583792	8.000000	1.406085	20.000000
1.583450	12.000000	1.405819	17.000000
1.583108	14.000000	1.405553	16.000000
1.582766	12.000000	1.405287	15.000000
1.582425	12.000000	1.405021	11.000000
1.582084	13.000000	1.404756	10.000000
1.581742	18.000000	1.404490	17.000000
1.581401	6.000000	1.404225	12.000000
1.581060	14.000000	1.403959	16.000000
1.580720	12.000000	1.403694	14.000000
1.580379	22.000000	1.403429	22.000000
1.580038	9.000000	1.403164	9.000000
1.579698	12.000000	1.402899	19.000000
1.579358	11.000000	1.402634	7.000000
1.579018	5.000000	1.402369	14.000000
1.578678	15.000000	1.402105	12.000000
1.578338	16.000000	1.401840	9.000000
1.577999	19.000000	1.401576	5.000000
1.577659	12.000000	1.401311	5.000000
1.577320	8.000000	1.401047	12.000000
1.576981	8.000000	1.400783	15.000000
1.576642	15.000000	1.400519	11.000000
1.576303	16.000000	1.400255	11.000000
1.575964	13.000000	1.399991	16.000000
1.575626	12.000000	1.399727	11.000000
1.575287	11.000000	1.399463	11.000000
1.574949	17.000000	1.399200	6.000000
